time,altitude,velocityX,velocityY,altitude_cmd,velocityX_cmd,velocityY_cmd,throttle_cmd,accelX,accelY,accelZ,gyroX,gyroY,gyroZ,phi,theta,psi
7.745050430297852,1.16796875,-0.2,1.8,1.5,9.975431709299249,0.0,27.66607407014817,0.0,0.9,-9.1,-2,0,0,0,-1,0
7.78193211555481,1.16796875,-1.4,3.8,1.5,8.29172961504027,0.0,27.693714776542038,0.4,0.3,-9.3,-4,0,0,0,-1,0
7.848783016204834,1.16796875,-1.0,-1.2,1.5,6.947970462064604,0.0,27.704785086680204,0.1,-0.5,-9.9,-1,-12,0,-1,-1,0
7.914498567581177,1.23828125,-3.2,-0.0,1.5,5.300360518862478,0.0,22.08851131424308,0.3,-0.3,-10.8,0,-3,0,-1,-2,0
7.981431484222412,1.23828125,0.5,-0.1,1.5,3.4210855089044796,0.0,22.097237105015665,0.2,0.0,-10.5,5,-4,0,0,-2,0
8.048239946365356,1.2060546875,0.0,0.9,1.5,1.391588378122868,0.0,24.68516535370145,0.0,-0.1,-10.2,4,9,0,0,-2,0
8.115178346633911,1.2060546875,2.1,-4.6,1.5,-0.6978012343243424,0.0,24.694963976973668,-0.1,-0.1,-11.1,2,0,0,0,-1,0
8.182212591171265,1.134765625,7.2,-1.3,1.5,-2.7569659000839417,0.0,30.410265621496364,-0.1,0.0,-9.9,5,14,0,0,-1,0
8.248806476593018,1.1689453125,1.6,-1.9,1.5,-4.695594457282711,0.0,27.686927819391713,-0.5,0.7,-9.9,6,2,0,0,0,0
8.31562876701355,1.173828125,1.3,-0.9,1.5,-6.42873173911749,0.0,27.3071758269798,0.1,-0.9,-10.2,6,1,0,0,0,0
8.381553411483765,1.197265625,0.0,-4.8,1.5,-7.881122498165688,0.0,25.4422695254907,0.0,0.8,-10.0,3,0,0,1,0,0
8.448362588882446,1.197265625,0.3,-0.9,1.5,-8.988829246432532,0.0,25.452362502226606,0.1,-0.4,-10.5,-2,1,0,1,0,0
8.515230178833008,1.2109375,4.9,1.5,1.5,-9.703472449358935,0.0,24.368248392129317,-0.7,0.2,-9.7,-1,1,0,0,0,0
8.581907033920288,1.236328125,5.2,-0.8,1.5,-9.993983968842127,0.0,22.345787666272372,-0.4,0.2,-9.2,-3,24,0,0,0,0
8.648092031478882,1.263671875,2.5,-3.0,1.5,-9.847610323903304,0.0,20.166167178656906,-0.4,0.5,-10.0,2,11,0,0,2,0
8.715079069137573,1.255859375,4.0,-0.0,1.5,-9.27061744941556,0.0,20.799307403620332,-0.4,0.7,-9.2,6,2,0,0,2,0
8.781809568405151,1.27734375,-0.1,-1.7,1.5,-8.28763672410844,0.0,19.08798508439213,0.0,0.2,-9.7,0,2,0,0,2,0
8.848809719085693,1.31640625,0.7,-0.1,1.5,-6.942664314040863,0.0,15.969106489792466,0.4,0.0,-10.1,-1,-8,0,0,2,0
8.915187358856201,1.3203125,-2.3,2.3,1.5,-5.294177940698748,0.0,15.662597416900098,0.5,0.4,-9.5,-2,-3,0,0,1,0
8.981948852539062,1.36328125,0.2,1.2,1.5,-3.413464217796282,0.0,12.229657426010817,-0.6,0.4,-9.1,-4,1,0,0,1,0
9.048787832260132,1.36328125,-5.0,4.4,1.5,-1.3836612312573853,0.0,12.23421686468646,0.0,0.5,-9.4,-4,-11,0,0,1,0
9.115753173828125,1.384765625,-1.6,2.6,1.5,0.7063473473982017,0.0,10.519309215713292,0.4,-0.3,-9.6,-3,-3,0,0,0,0
9.182578325271606,1.41015625,-1.7,-0.1,1.5,2.765997450397497,0.0,8.49105572886765,0.0,0.0,-9.6,-3,-3,0,0,0,0
9.248265743255615,1.4033203125,-0.4,5.3,1.5,4.704486468594618,0.0,9.04115501861088,-0.4,0.1,-9.1,-2,-1,0,0,0,0
9.315208673477173,1.47265625,-0.4,0.1,1.5,6.436802558839824,0.0,3.4951917303260416,0.7,-0.6,-9.4,-1,-2,0,0,0,0
9.381901264190674,1.5234375,-1.3,1.3,1.5,7.88819284569697,0.0,-0.5680900749284774,0.6,-0.8,-9.3,-4,-3,0,0,0,0
9.449096918106079,1.5234375,-7.4,-1.0,1.5,8.994006213864024,0.0,-0.5688715896103531,0.1,-0.2,-9.2,0,-21,0,0,-1,0
9.515607357025146,1.517578125,-3.0,3.3,1.5,9.706515255818886,0.0,-0.10070777800865471,-0.4,0.0,-9.3,4,-21,0,0,-2,0
9.582557439804077,1.546875,-6.3,-2.5,1.5,9.994429634958223,0.0,-2.44602066767402,0.2,-0.1,-9.3,3,-5,0,0,-3,0
9.648303508758545,1.546875,0.0,0.9,1.5,9.845362532191574,0.0,-2.4475833897013217,-0.6,0.5,-9.6,6,-5,0,0,-3,0
9.715216159820557,1.5458984375,-1.4,2.8,1.5,9.265914446889335,0.0,-2.370988494833,0.6,-1.1,-10.0,-3,7,0,0,-3,0
9.782026052474976,1.5458984375,2.6,-1.1,1.5,8.281530070370716,0.0,-2.372518452233635,0.3,0.0,-10.2,-3,3,0,0,-3,0
9.848811149597168,1.509765625,0.9,-2.0,1.5,6.934853783959123,0.0,0.5177809504093602,0.2,-0.7,-9.9,5,9,0,0,-2,0
9.915566205978394,1.548828125,0.9,-4.6,1.5,5.285094488604844,0.0,-2.60884690831881,0.0,0.2,-10.5,4,0,0,0,-2,0
9.982540130615234,1.599609375,0.6,-1.3,1.5,3.404092139864914,0.0,-6.674668048857711,0.0,0.0,-9.2,0,4,0,0,-2,0
10.049398183822632,1.595703125,4.5,-0.1,1.5,1.3747224618392582,0.0,-6.365358195616864,-0.6,0.4,-9.3,1,-3,0,0,-1,0
10.11521291732788,1.595703125,2.7,-4.0,1.5,-0.7152258736049877,0.0,-6.368549118167721,0.2,-0.8,-10.8,0,15,0,0,-1,0
10.181931734085083,1.548828125,1.1,-0.1,1.5,-2.7743485495626623,0.0,-2.6201775007648394,-0.3,-0.1,-9.5,0,5,0,0,0,0
10.248837232589722,1.548828125,2.3,-0.7,1.5,-4.711632545098289,0.0,-2.6218054642667994,-0.1,0.3,-9.4,0,7,0,0,0,0
10.315510988235474,1.5751953125,1.0,-0.2,1.5,-6.443043057200006,0.0,-4.733687752159312,-0.3,-0.3,-9.7,0,4,0,0,0,0
10.382359504699707,1.568359375,1.7,-0.5,1.5,-7.892442564733814,0.0,-4.189091664738953,0.5,-0.1,-9.6,0,0,0,0,0,0
10.449257612228394,1.568359375,1.5,-0.3,1.5,-8.997285910023637,0.0,-4.19137172633782,0.0,-0.7,-9.9,0,6,0,0,0,0
10.51600193977356,1.6259765625,4.3,2.2,1.5,-9.70858346307912,0.0,-8.804949950776063,0.3,0.0,-10.2,-2,13,0,0,1,0
10.583255052566528,1.62109375,1.9,1.3,1.5,-9.994715603354209,0.0,-8.418362545664422,-0.4,0.5,-9.2,-3,10,0,0,1,0
10.649031639099121,1.6611328125,1.9,-2.1,1.5,-9.843861456938154,0.0,-11.626859056879766,-0.5,-0.2,-9.1,0,2,0,0,2,0
10.715625047683716,1.654296875,0.0,1.2,1.5,-9.26263884616058,0.0,-11.085128182428889,-0.1,0.0,-9.9,4,-2,0,0,2,0
10.783287525177002,1.6953125,-0.4,0.6,1.5,-8.272092660924045,0.0,-14.37291387829464,-0.3,-0.8,-9.2,-1,-4,0,0,1,0
10.849205493927002,1.6953125,-0.6,4.9,1.5,-6.922975911960613,0.0,-14.37942477769684,0.1,0.1,-9.1,0,-3,1,0,1,0
10.915749549865723,1.58984375,-0.8,0.8,1.5,-5.269984322702,0.0,-5.944921912043355,-0.1,-0.6,-10.1,-12,3,0,0,1,0
10.982796669006348,1.548828125,-2.1,6.0,1.5,-3.387099683830268,0.0,-2.6653001316590235,0.6,0.4,-10.2,0,-13,0,0,0,0
11.04953646659851,1.5693359375,-0.7,4.6,1.5,-1.3562873328941714,0.0,-4.308236972079612,0.0,-0.6,-9.3,-11,-2,0,0,0,0
11.116220951080322,1.560546875,-1.9,7.1,1.5,0.7345568011402991,0.0,-3.6071314552100375,-0.1,0.3,-9.9,-6,-1,-1,-1,0,0
11.18316388130188,1.583984375,-0.5,1.3,1.5,2.7931933293665008,0.0,-5.484932593652047,0.4,-0.5,-9.6,-2,0,0,-1,0,0
11.249972105026245,1.50390625,-2.4,1.2,1.5,4.7291143724551095,0.0,0.9211871562292799,-0.4,1.3,-9.8,0,-1,-2,-1,0,0
11.316811323165894,1.50390625,-0.4,-0.1,1.5,6.4590550072589625,0.0,0.9210568376583979,0.0,-0.4,-9.8,9,-6,0,-1,0,0
11.38330888748169,1.5185546875,-4.6,-0.6,1.5,7.905375323347599,0.0,-0.2514367641415447,-0.3,-0.1,-9.7,4,-18,0,0,0,0
11.449978590011597,1.5185546875,-4.8,2.0,1.5,9.006163491652988,0.0,-0.2520554300863296,-0.6,0.7,-9.4,5,-15,0,0,-2,0
11.516898393630981,1.517578125,-3.5,3.3,1.5,9.713207913088839,0.0,-0.1745166457258165,0.1,-0.3,-10.0,-2,-9,0,0,-2,0
11.58263874053955,1.484375,-0.6,1.4,1.5,9.995327721266818,0.0,2.482254343573004,0.1,0.3,-10.2,1,-5,-1,0,-3,0
11.649525880813599,1.47265625,0.0,2.6,1.5,9.840422831066137,0.0,3.420665879268199,0.1,-0.6,-10.4,-5,4,0,0,-3,0
11.716231346130371,1.498046875,0.9,-0.8,1.5,9.255334936194334,0.0,1.3894809919875115,0.0,0.5,-10.0,-2,3,0,0,-2,0
11.783188104629517,1.4892578125,-0.4,-2.6,1.5,8.265139714818705,0.0,2.092964263050817,0.1,-0.6,-10.2,2,1,0,0,-2,0
11.850096464157104,1.48046875,0.0,0.9,1.5,6.914014971433671,0.0,2.7967403669608757,0.4,-0.1,-9.8,7,-1,0,0,-2,0
11.917082786560059,1.474609375,0.3,-1.7,1.5,5.260065607764535,0.0,3.266337080509402,-0.1,-0.6,-9.5,2,1,1,0,-2,0
11.983839511871338,1.4609375,0.4,-1.6,1.5,3.3752225995340304,0.0,4.361390256904997,-0.5,1.0,-9.3,4,5,0,0,-2,0
12.049550294876099,1.4609375,2.5,-1.7,1.5,1.3436879995649509,0.0,4.362692758091725,0.0,0.0,-9.7,0,6,0,0,-1,0
12.116374254226685,1.458984375,1.3,-0.7,1.5,-0.746609922307573,0.0,4.52031038433779,0.0,0.2,-9.4,0,10,0,0,-1,0
12.18341064453125,1.482421875,4.4,1.5,1.5,-2.804265609540875,0.0,2.6458965140627697,-0.4,0.4,-9.7,3,9,0,0,0,0
12.250202178955078,1.482421875,2.7,0.4,1.5,-4.739659515844153,0.0,2.6464827632298693,-0.2,0.5,-9.4,0,10,0,0,0,0
12.317197561264038,1.5419921875,0.8,-1.1,1.5,-6.467637135393449,0.0,-2.1205426758388057,-0.5,0.6,-10.0,0,3,0,0,0,0
12.383732080459595,1.51953125,1.2,-0.4,1.5,-7.912450636071565,0.0,-0.3243189334170893,0.1,-0.2,-9.6,-2,2,0,0,0,0
12.449652194976807,1.5,0.6,2.0,1.5,-9.011322979931851,0.0,1.2381810665829107,-0.1,0.0,-10.0,0,5,0,0,0,0
12.51759958267212,1.5419921875,3.3,-1.9,1.5,-9.716076870943006,0.0,-2.122594472602941,0.2,-0.2,-9.9,2,8,0,0,1,0
12.583503007888794,1.5458984375,0.5,-0.5,1.5,-9.995683120421909,0.0,-2.4366247090511024,0.1,-0.3,-10.4,2,5,0,0,1,0
12.650248765945435,1.521484375,1.5,-0.2,1.5,-9.838283859273757,0.0,-0.48421595664694905,0.1,-0.3,-10.4,2,5,0,0,1,0
12.717220544815063,1.44140625,-1.5,-4.3,1.5,-9.25080583243682,0.0,5.923987390007824,0.1,-0.7,-10.2,-2,0,0,0,1,0
12.783981800079346,1.431640625,-0.5,-0.2,1.5,-8.257964383513967,0.0,6.707518160576001,-0.3,0.0,-10.0,-2,-8,0,0,1,0
12.849695444107056,1.42578125,-0.9,5.7,1.5,-6.904463911202832,0.0,7.178742921678349,-0.6,0.3,-9.3,-6,0,0,0,1,0
12.916501522064209,1.46875,0.0,1.6,1.5,-5.249376746017187,0.0,3.742284706560895,-0.5,0.6,-9.7,-5,5,0,0,1,0
12.98350191116333,1.470703125,-4.2,3.4,1.5,-3.3641574121847757,0.0,3.587011708179489,0.5,0.2,-10.4,-2,-13,0,0,0,0
13.051333665847778,1.462890625,-1.7,7.1,1.5,-1.3263509499976043,0.0,4.213252477347851,-0.1,1.0,-10.2,-1,-1,0,0,0,0
13.117326974868774,1.470703125,-0.7,5.3,1.5,0.7637207804116024,0.0,3.5892291995696723,0.5,-0.9,-10.2,-2,-6,0,0,0,0
13.183940410614014,1.400390625,-0.9,0.6,1.5,2.820687053584763,0.0,9.217550530098379,-0.5,0.7,-9.6,1,-1,0,0,0,0
13.251501083374023,1.400390625,-0.6,13.4,1.5,4.761825159046593,0.0,9.22088540927507,-0.5,0.7,-9.6,1,-1,0,0,0,0
13.317642211914062,1.400390625,-1.1,1.2,1.5,6.486901192904446,0.0,9.224207535386086,-0.1,0.7,-10.0,1,0,0,0,0,0
13.384225368499756,1.48828125,-1.1,-0.0,1.5,7.928439348935267,0.0,2.193348458968103,0.2,-0.8,-10.5,-2,-5,1,-1,0,0
13.450849533081055,1.515625,-2.5,2.3,1.5,9.022729322737744,0.0,0.005327350459992886,-0.5,1.8,-9.8,15,-21,0,-1,-1,0
13.517613172531128,1.49609375,-6.4,0.6,1.5,9.722164411271706,0.0,1.5679576015099883,0.1,0.1,-10.5,-1,-10,0,0,-2,0
13.584593057632446,1.46484375,-6.1,-1.6,1.5,9.99640862896204,0.0,4.069129672367126,0.1,0.0,-10.3,0,-15,0,0,-3,0
13.651333332061768,1.40625,-3.9,0.3,1.5,9.833564124702296,0.0,8.75975561933592,-0.2,0.0,-9.5,-4,-5,0,0,-3,0
13.718043327331543,1.404296875,-2.1,-1.6,1.5,9.240670739605953,0.0,8.919196747243404,-0.2,0.9,-9.6,5,2,0,0,-4,0
13.783985137939453,1.44140625,0.3,-2.1,1.5,8.243931681871787,0.0,5.952400051988661,-0.3,0.8,-9.8,5,7,0,0,-3,0
13.85091257095337,1.44140625,1.5,-2.3,1.5,6.886648875773604,0.0,5.954353580251336,-0.3,0.8,-9.8,5,7,0,0,-3,0
13.917642593383789,1.419921875,0.4,-0.1,1.5,5.228415956147985,0.0,7.675773182651028,-0.3,0.1,-9.8,9,0,0,0,-3,0
13.984418392181396,1.48828125,0.6,-5.0,1.5,3.341306091178139,0.0,2.207413917640224,-0.1,0.8,-9.0,7,6,0,0,-2,0
14.05138373374939,1.525390625,1.9,-4.3,1.5,1.3069203272636576,0.0,-0.7621831470169127,0.2,0.0,-10.6,3,8,1,1,-2,0
14.118127822875977,1.51171875,1.7,-1.2,1.5,-0.7829685875638965,0.0,0.33117621997371316,-0.2,0.8,-9.6,2,0,0,1,-1,0
14.185067176818848,1.51171875,3.1,-0.0,1.5,-2.8389291622027963,0.0,0.3307855282910168,-0.6,0.3,-9.2,-1,11,0,1,-1,0
14.251177072525024,1.501953125,2.8,1.0,1.5,-4.770480171830429,0.0,1.111970423720777,0.2,-0.4,-10.3,-8,2,1,0,0,0
14.317888021469116,1.501953125,1.1,0.8,1.5,-6.493890353117147,0.0,1.1119053044822067,-0.1,0.0,-9.9,-1,5,2,0,0,0
14.385216474533081,1.5048828125,1.0,-3.9,1.5,-7.934150971855104,0.0,0.8773674051044509,0.0,-0.5,-10.1,2,5,0,0,0,0
14.451088905334473,1.4892578125,8.5,-6.6,1.5,-9.026477376733101,0.0,2.1277255532331765,0.0,-0.5,-10.1,2,5,0,0,0,0
14.517834186553955,1.5498046875,1.2,0.6,1.5,-9.72417741994816,0.0,-2.717685076408088,-0.1,-0.4,-10.5,2,13,0,1,0,0
14.517834186553955,1.5361328125,1.2,0.6,1.5,-9.996643695201595,0.0,-1.6251398813910782,-0.2,0.4,-9.9,0,8,0,1,2,0
14.517834186553955,1.5361328125,1.2,0.6,1.5,-9.831936061937899,0.0,-1.6263446863740683,-0.2,0.4,-9.9,0,8,0,1,2,0
14.718307733535767,1.5361328125,5.2,2.4,1.5,-9.237432864431566,0.0,-1.627549228607677,-0.2,0.4,-9.9,0,8,0,1,2,0
14.718307733535767,1.5361328125,5.2,2.4,1.5,-8.239106464152897,0.0,-1.628753796685487,-0.2,0.4,-9.9,0,8,0,1,2,0
14.851178169250488,1.5361328125,-0.4,4.7,1.5,-6.880372121846539,0.0,-1.6299585499800742,-0.2,0.4,-9.9,0,8,0,1,2,0
14.917797327041626,1.5771484375,-0.5,3.0,1.5,-5.219598109937925,0.0,-4.913782544084825,-0.1,0.1,-9.9,-4,-8,-1,0,1,0
15.116899728775024,1.59375,-1.7,0.4,1.5,-3.331314770832438,0.0,-6.2450338151538745,-0.3,-0.2,-9.5,-8,-7,-1,0,1,0
15.153962135314941,1.59375,-4.6,3.8,1.5,1.8775390233270506,0.0,-6.252919409074821,0.2,-0.3,-9.4,-4,-4,-1,0,0,0
15.220131874084473,1.61328125,-1.3,1.7,1.5,3.879168867397411,0.0,-7.819196459953673,0.3,-0.3,-10.1,0,-3,0,0,0,0
15.285701036453247,1.5966796875,-1.4,0.5,1.5,5.710755106604713,0.0,-6.494294205331244,0.1,0.2,-9.7,-4,2,-1,0,0,0
15.352431535720825,1.5966796875,-4.8,4.6,1.5,7.292988863194717,0.0,-6.497517492389306,0.0,0.2,-10.1,-4,-17,-1,-1,0,0
15.420105695724487,1.548828125,-5.9,-1.6,1.5,8.556382130955265,0.0,-2.6710204617120326,-0.2,0.2,-9.3,-4,-12,0,-1,-1,0
15.485942602157593,1.537109375,-5.9,2.8,1.5,9.445727001881265,0.0,-1.734757846686989,-0.4,0.2,-9.7,6,-16,-1,-1,-2,0
15.552672386169434,1.51953125,-4.3,1.1,1.5,9.92196637080115,0.0,-0.32915906701236963,0.0,0.0,-10.1,-1,-11,0,-1,-3,0
15.619571924209595,1.5595703125,-1.0,-0.0,1.5,9.96434359628718,0.0,-3.5342701327754185,-0.3,0.3,-9.5,4,-3,0,0,-4,0
15.686504602432251,1.544921875,-1.0,-4.3,1.5,9.570556424912708,0.0,-2.3638940640958026,0.0,-0.2,-10.1,5,3,0,0,-4,0
15.752935886383057,1.578125,1.0,-1.9,1.5,8.75846591972225,0.0,-5.022748768446036,-0.2,0.1,-9.7,5,4,0,0,-3,0
15.819743871688843,1.572265625,0.8,-5.2,1.5,7.563426722229486,0.0,-4.556408119970001,-0.1,0.0,-9.4,6,6,0,0,-3,0
15.886758089065552,1.609375,0.6,-6.6,1.5,6.037494569093616,0.0,-7.528805149369873,0.0,0.1,-9.7,4,6,0,0,-2,0
15.953741312026978,1.595703125,2.1,-0.4,1.5,4.248127453829812,0.0,-6.438245284720324,-0.3,0.0,-9.2,0,9,0,0,-2,0
16.020232439041138,1.591796875,7.5,1.8,1.5,2.2728337861359766,0.0,-6.128805593471043,0.2,0.1,-9.9,-2,0,0,0,-1,0
16.08602523803711,1.64453125,2.4,-0.6,1.5,0.1978744383588647,0.0,-10.352374658337794,0.5,-0.3,-10.0,-4,16,0,0,-1,0
16.153202056884766,1.59765625,4.7,2.5,1.5,-1.8852227054474433,0.0,-6.605629968340509,-0.5,0.0,-9.3,-4,8,0,0,0,0
16.219717979431152,1.578125,1.6,3.2,1.5,-3.886053328091536,0.0,-5.045734383980744,-0.2,-0.1,-10.3,-5,6,0,0,0,0
16.286572217941284,1.58984375,2.2,-0.0,1.5,-5.7174024642237296,0.0,-5.986230158130638,-0.5,0.3,-9.4,0,1,0,0,0,0
16.353509664535522,1.5810546875,0.8,0.3,1.5,-7.298293718521926,0.0,-5.285807075095363,-0.1,0.1,-10.1,1,0,-1,0,0,0
16.420300483703613,1.619140625,0.2,-4.3,1.5,-8.56035475251909,0.0,-8.336654164013453,-0.4,0.5,-9.2,0,1,-2,0,0,0
16.486014366149902,1.64453125,2.8,-2.6,1.5,-9.448364394466006,0.0,-10.37272427987773,0.0,0.0,-10.1,0,2,-2,0,0,0
16.55330467224121,1.6875,3.8,-2.0,1.5,-9.922973041755917,0.0,-13.81647619616706,-0.1,-0.8,-10.4,4,8,-1,0,0,0
16.61994171142578,1.677734375,5.6,-1.7,1.5,-9.963513811633028,0.0,-13.041156559833325,-0.6,0.2,-9.4,2,19,0,0,1,0
16.68666172027588,1.642578125,1.8,-1.0,1.5,-9.568088637021347,0.0,-10.233411148074083,-0.3,0.1,-9.4,0,13,0,0,2,0
16.753587007522583,1.6328125,1.4,-0.7,1.5,-8.753941013119382,0.0,-9.456590966205113,0.0,0.2,-9.4,1,-3,2,0,3,0
16.820420503616333,1.625,-2.2,1.8,1.5,-7.557426017308542,0.0,-8.835758105735295,-0.2,0.2,-8.7,-5,-6,2,0,2,0
16.88737940788269,1.646484375,-2.1,2.0,1.5,-6.0293085615264665,0.0,-10.55939506960567,-0.2,0.2,-8.7,-5,-6,2,0,2,0
16.953240633010864,1.625,-5.1,2.5,1.5,-4.2386599393365225,0.0,-8.84481216443237,0.0,-0.3,-10.1,-4,-5,2,0,1,0
17.02009344100952,1.60546875,-5.7,1.2,1.5,-2.262492731573287,0.0,-7.285828527878039,0.3,0.1,-10.0,-2,-12,0,0,0,0
17.086971521377563,1.6025390625,-2.0,0.8,1.5,-0.18717293845349856,0.0,-7.05487260571681,0.0,-0.1,-9.2,0,-4,0,0,0,0
17.153676986694336,1.5908203125,-1.3,5.7,1.5,1.895864275858961,0.0,-6.120400228071958,-0.3,0.6,-9.6,1,-3,0,0,0,0
17.220513343811035,1.60546875,-2.3,-2.0,1.5,3.895886986971597,0.0,-7.29579093772918,0.3,-0.4,-9.7,-1,-2,0,0,0,0
17.287479639053345,1.61328125,-1.4,-0.5,1.5,5.725860137144578,0.0,-7.924567556474358,0.1,0.0,-10.2,0,0,0,0,0,0
17.353375911712646,1.609375,-1.8,1.5,1.5,7.305456971401696,0.0,-7.615713816601783,-0.5,-0.4,-9.6,-3,-10,0,-1,0,0
17.420063257217407,1.564453125,-5.9,-1.3,1.5,8.565735029251156,0.0,-4.024112582439557,0.3,-0.3,-9.9,-5,-12,0,-1,-1,0
17.486955642700195,1.560546875,-2.7,-5.3,1.5,9.451634365078464,0.0,-3.713631415972486,0.2,0.0,-10.3,2,-13,1,-1,-2,0
17.553828477859497,1.556640625,-1.7,4.3,1.5,9.92422534752516,0.0,-3.403020150726661,0.2,0.0,-10.0,1,-4,1,-1,-3,0
17.6205472946167,1.58984375,-0.2,-1.0,1.5,9.96278966115074,0.0,-6.062265485757962,0.2,-0.1,-9.7,0,-1,0,-1,-3,0
17.687705278396606,1.564453125,-0.7,-1.0,1.5,9.56578907423443,0.0,-4.033164259279147,-0.1,-0.3,-9.7,1,4,0,0,-3,0
17.753355264663696,1.572265625,0.3,-1.3,1.5,8.750451882777803,0.0,-4.660573817556724,-0.2,0.7,-9.5,4,0,0,0,-2,0
17.820055723190308,1.646484375,-0.3,0.5,1.5,7.552650455163128,0.0,-10.602957358816639,-0.2,0.0,-9.9,2,1,0,0,-3,0
17.88720178604126,1.646484375,1.8,-7.6,1.5,6.024892195085919,0.0,-10.60784021904692,-0.1,0.2,-9.9,10,2,0,0,-2,0
17.954487562179565,1.65625,0.0,-5.9,1.5,4.232514632803498,0.0,-11.394302179571241,0.0,-0.5,-10.5,3,7,-1,0,-2,0
18.02065658569336,1.6826171875,4.9,-1.1,1.5,2.255800620283723,0.0,-13.509765980765224,-0.1,0.3,-8.8,8,-2,0,1,-1,0
18.086496591567993,1.6728515625,1.5,-3.9,1.5,0.18083835534148465,0.0,-12.734278064919636,0.1,-0.5,-10.0,-3,12,0,1,-1,0
18.153512477874756,1.6796875,0.0,1.1,1.5,-1.9018880318153888,0.0,-13.287142663961276,-0.3,0.2,-9.1,0,4,-1,1,0,0
18.220199823379517,1.666015625,0.8,4.0,1.5,-3.901624683829551,0.0,-12.198926869081333,-0.4,0.2,-9.2,1,0,-1,1,0,0
18.28696370124817,1.630859375,1.2,-5.5,1.5,-5.7312329891157265,0.0,-9.390790201257914,0.0,0.6,-9.6,-3,1,-1,0,0,0
18.35382914543152,1.630859375,0.7,-0.3,1.5,-7.309944589960862,0.0,-9.395152722252533,0.0,-0.1,-10.2,1,3,0,0,0,0
18.420215129852295,1.625,1.5,-0.0,1.5,-8.569317276320001,0.0,-8.930570785654709,-0.3,-0.7,-9.9,-1,3,0,0,0,0
18.486966133117676,1.6318359375,0.6,-2.7,1.5,-9.453959693472989,0.0,-9.48184201004915,0.0,-0.1,-9.5,0,0,0,0,0,0
18.553830862045288,1.615234375,6.0,-1.4,1.5,-9.925028641000688,0.0,-8.157558550592512,-0.3,0.3,-9.3,2,19,2,1,0,0
18.62070631980896,1.6123046875,2.6,1.8,1.5,-9.962238297692643,0.0,-7.92692739807535,-0.3,0.3,-9.3,2,19,2,1,0,0
18.687660694122314,1.634765625,2.0,-0.0,1.5,-9.563842981392055,0.0,-9.728295930777676,-0.1,-0.2,-9.8,-2,1,1,0,2,0
18.753435850143433,1.625,-1.6,2.7,1.5,-8.747364922125048,0.0,-8.951213204418309,-0.3,0.2,-9.6,-7,-2,1,0,2,0
18.82097625732422,1.609375,-0.1,5.0,1.5,-7.548659058293926,0.0,-7.704859086428769,0.3,-0.4,-9.5,-4,-10,0,0,1,0
18.887711763381958,1.634765625,-1.9,2.1,1.5,-6.019552562985835,0.0,-9.740602619131096,-0.3,0.1,-9.9,-6,1,-1,0,1,0
18.95364284515381,1.58984375,-1.3,8.3,1.5,-4.227102031641674,0.0,-6.149848468252458,-0.1,0.3,-10.3,-5,-11,0,0,0,0
19.020264148712158,1.5712890625,-1.7,5.7,1.5,-2.250361900554187,0.0,-4.667849938035943,0.2,-0.1,-9.8,-4,0,-1,-1,0,0
19.088485956192017,1.5654296875,-1.9,4.1,1.5,-0.17255849698360148,0.0,-4.201283881673589,0.0,-0.4,-9.5,-7,0,0,-1,0,0
19.15389347076416,1.5546875,-0.5,3.0,1.5,1.910195240685765,0.0,-3.3437319530639797,0.1,-0.3,-10.0,-7,-2,0,-1,0,0
19.220563411712646,1.537109375,-1.8,6.1,1.5,3.9098977324589916,0.0,-1.9387193247675896,-0.1,0.2,-9.8,12,-3,0,-1,0,0
19.28765106201172,1.548828125,-1.5,0.5,1.5,5.738259295485358,0.0,-2.877847113646567,0.1,0.2,-9.9,5,-3,0,-1,0,0
19.354216814041138,1.537109375,-2.0,-0.5,1.5,7.316698236747438,0.0,-1.9415850338991731,-0.1,-0.2,-10.2,1,-5,0,0,0,0
19.420613527297974,1.58203125,-6.2,-6.2,1.5,8.5742011319097,0.0,-5.538069758331403,0.2,0.4,-9.3,6,-24,0,0,-1,0
19.48772168159485,1.6484375,-7.3,-4.8,1.5,9.456915913330125,0.0,-10.85551864351146,0.0,0.0,-9.5,2,-17,0,0,-2,0
19.554190158843994,1.640625,-3.2,-1.0,1.5,9.926239840363104,0.0,-10.23520856979303,-0.1,-0.3,-10.0,1,-11,0,0,-3,0
19.620688438415527,1.6064453125,-2.3,1.3,1.5,9.961273112098553,0.0,-7.504383938736282,0.1,-0.3,-9.5,2,-1,0,0,-4,0
19.687691688537598,1.607421875,0.0,1.5,1.5,9.560775189158964,0.0,-7.586089779739268,0.3,-0.1,-10.4,-7,6,0,0,-3,0
19.75417995452881,1.62890625,1.5,6.0,1.5,8.742404527135841,0.0,-9.309136773576029,0.0,0.0,-10.1,-4,5,0,0,-3,0
19.82062792778015,1.62890625,0.9,-0.8,1.5,7.54129008712229,0.0,-9.31343574973289,0.1,-0.6,-9.9,-1,5,0,0,-2,0
19.887549877166748,1.62890625,1.3,-0.7,1.5,6.010361838702062,0.0,-9.31773448002059,0.1,-0.3,-9.6,1,0,0,0,-2,0
19.954091548919678,1.615234375,-0.1,-1.1,1.5,4.217338889972904,0.0,-8.22782563592773,0.2,-0.3,-9.9,8,0,0,0,-2,0
20.02063822746277,1.662109375,0.1,-4.5,1.5,2.238165692455432,0.0,-11.98323416581843,0.2,-0.2,-10.3,8,2,0,0,-2,0
20.087490797042847,1.6513671875,0.5,-16.0,1.5,0.16281959374480082,0.0,-11.128904878278263,-0.2,-0.4,-10.0,6,7,1,1,-1,0
20.154096603393555,1.5546875,0.8,-20.9,1.5,-1.9196803762389716,0.0,-3.396352884476073,0.0,0.1,-10.0,19,13,1,1,-1,0
20.221057415008545,1.5947265625,0.9,-22.7,1.5,-3.9187203918658895,0.0,-6.602636325638741,0.4,0.0,-10.1,39,6,0,3,0,0
20.287832975387573,1.57421875,0.6,-4.8,1.5,-5.747060939837615,0.0,-4.964486936107278,0.0,-0.8,-10.2,16,1,0,6,0,0
20.354644536972046,1.54296875,1.0,-34.3,1.5,-7.32303558030401,0.0,-2.465919323731214,-0.5,0.8,-9.2,-28,1,0,6,0,0
20.420512676239014,1.5625,1.2,14.8,1.5,-8.578900871722372,0.0,-4.030502774287015,-0.8,-0.5,-10.1,46,0,0,4,0,0
20.487568616867065,1.5625,0.7,-0.1,1.5,-9.460065285921488,0.0,-4.032587066758424,0.0,0.7,-10.5,-77,5,0,6,0,0
20.55406379699707,1.595703125,0.1,21.0,1.5,-9.92728631805979,0.0,-6.692027247743681,-0.6,-0.1,-10.1,27,1,0,1,0,0
20.62152123451233,1.572265625,0.6,-3.1,1.5,-9.960611813211083,0.0,-4.81943624606356,-0.5,0.0,-10.1,-56,8,-1,1,0,0
20.687813997268677,1.560546875,0.0,8.8,1.5,-9.558574399021701,0.0,-3.883954538265243,0.2,-0.6,-10.2,4,-2,0,-1,0,0
20.754748582839966,1.5673828125,-0.2,5.0,1.5,-8.73827907303668,0.0,-4.433076762477867,-0.1,-0.3,-9.6,-32,14,-1,-1,0,0
20.821549654006958,1.541015625,2.1,1.1,1.5,-7.535817706923536,0.0,-2.32506951096002,0.4,0.4,-10.1,4,0,-2,-1,1,0
20.887957096099854,1.607421875,-2.7,10.5,1.5,-6.003962474189478,0.0,-7.641151235555299,0.4,0.0,-9.9,13,-12,-2,-1,0,0
20.95505428314209,1.658203125,0.2,-2.1,1.5,-4.20955194464861,0.0,-11.708926157909445,-1.2,1.5,-9.2,2,17,-1,-1,0,0
21.020873308181763,1.6376953125,0.5,5.9,1.5,-2.2312745049923493,0.0,-10.072891818010248,0.0,-1.3,-9.9,-10,-15,0,-1,0,0
21.0876727104187,1.6640625,-3.9,-1.7,1.5,-0.15517837030256143,0.0,-12.187737225205638,0.1,-0.4,-9.1,15,-3,0,-1,0,0
21.154181480407715,1.6513671875,-0.8,0.1,1.5,1.9274138175775604,0.0,-11.177158623351716,-0.3,-0.9,-9.4,0,0,1,0,0,0
21.221116542816162,1.646484375,-0.8,0.6,1.5,3.926022115570355,0.0,-10.791417932952754,-0.1,0.2,-9.2,6,-1,1,0,0,0
21.28787136077881,1.638671875,-0.2,7.9,1.5,5.752736086171003,0.0,-10.171041217050515,-0.2,-0.7,-9.7,-7,0,0,0,0,0
21.354710817337036,1.630859375,-0.3,6.0,1.5,7.328101337027276,0.0,-9.550404533627443,0.0,0.5,-10.2,-7,-6,0,-1,0,0
21.421665906906128,1.62109375,-0.5,0.8,1.5,8.583020932682219,0.0,-8.773192330612801,-0.8,-1.0,-9.9,-19,9,1,-1,0,0
21.48839783668518,1.62109375,-0.1,3.4,1.5,9.462885121101028,0.0,-8.777231989777647,0.0,0.6,-9.9,-9,-19,0,-2,0,0
21.554754734039307,1.623046875,-5.5,6.0,1.5,9.928433583891072,0.0,-8.937585323234089,0.1,-0.7,-9.4,-9,-5,0,-3,-1,0
21.621824264526367,1.6171875,-7.4,-5.9,1.5,9.959691268439373,0.0,-8.472743190010078,0.1,1.0,-9.4,7,-13,0,-3,-2,0
21.68852400779724,1.64453125,-3.3,2.1,1.5,9.55539297871525,0.0,-10.665062203188427,-0.3,-0.8,-9.4,9,-13,0,-2,-3,0
21.754202604293823,1.630859375,-0.8,7.2,1.5,8.732841991997484,0.0,-9.575677110929973,0.0,1.3,-9.9,8,0,0,-2,-3,0
21.821226596832275,1.6357421875,0.3,0.3,1.5,7.52893432702222,0.0,-9.970827186014503,-0.5,-0.6,-9.9,-3,9,0,-1,-3,0
21.88790774345398,1.6357421875,2.7,-2.4,1.5,5.995559716928676,0.0,-9.975353264366277,-0.4,0.3,-9.4,6,8,0,-1,-2,0
21.95464825630188,1.623046875,1.6,-3.2,1.5,4.199702124556756,0.0,-8.963831671164371,0.0,-0.8,-10.0,10,7,0,0,-2,0
22.021771907806396,1.59765625,3.8,-0.5,1.5,2.22038395395633,0.0,-6.935837947414257,0.2,0.5,-10.0,9,1,0,0,-1,0
22.088325023651123,1.580078125,0.8,-6.7,1.5,0.14392301441447325,0.0,-5.532258141669445,-0.3,-0.4,-9.9,2,12,0,0,-1,0
22.155421495437622,1.5908203125,6.2,-5.6,1.5,-1.93815875521161,0.0,-6.394660536665469,-0.2,0.1,-10.0,3,0,-1,0,0,0
22.221049547195435,1.5966796875,1.1,-0.4,1.5,-3.9357149092374395,0.0,-6.866633547120728,-0.3,0.0,-9.8,0,4,-1,0,0,0
22.28788733482361,1.5869140625,1.1,-1.1,1.5,-5.76114484577025,0.0,-6.08828087663278,0.2,-0.4,-10.3,-2,2,-1,0,0,0
22.35462784767151,1.578125,1.3,1.0,1.5,-7.334660641416013,0.0,-5.387760059442371,-0.2,0.0,-10.6,-1,3,-1,0,0,0
22.421655654907227,1.619140625,1.4,1.4,1.5,-8.587633917687747,0.0,-8.672981495037675,0.0,-0.6,-10.5,-4,3,-1,0,0,0
22.48818039894104,1.599609375,1.7,0.8,1.5,-9.465384021791694,0.0,-7.113802445586771,0.0,0.4,-9.3,1,5,0,0,0,0
22.555287837982178,1.626953125,1.4,5.3,1.5,-9.929372765167063,0.0,-9.305536346277222,-0.4,0.8,-9.4,4,15,0,0,1,0
22.621899604797363,1.626953125,2.1,-1.2,1.5,-9.958999430147514,0.0,-9.309769460000098,0.0,0.5,-9.7,0,5,0,0,1,0
22.687503814697266,1.6171875,1.5,0.3,1.5,-9.553235443455211,0.0,-8.532426055520773,0.0,-0.2,-9.1,1,6,0,0,1,0
22.755473136901855,1.58203125,0.9,-4.3,1.5,-8.729679009349113,0.0,-5.722661200445145,0.1,-0.4,-9.9,2,1,0,0,2,0
22.821388244628906,1.5947265625,-0.6,-0.0,1.5,-7.524618585444567,0.0,-6.741444099578075,0.0,-0.5,-9.9,0,-4,1,0,2,0
22.88797426223755,1.58203125,-0.4,-0.2,1.5,-5.9905260614353315,0.0,-5.7285539315780625,0.1,0.2,-9.7,0,-5,0,0,1,0
22.954762935638428,1.595703125,0.1,-0.3,1.5,-4.1944708769166255,0.0,-6.825494671589695,0.2,-0.1,-10.3,-5,1,1,0,1,0
23.021806240081787,1.591796875,-1.0,-1.3,1.5,-2.2150336983234484,0.0,-6.516055155429058,0.2,-0.1,-10.3,-5,1,1,0,1,0
23.088475465774536,1.591796875,-0.5,-0.6,1.5,-0.13880857283970277,0.0,-6.519115562667139,0.2,0.2,-9.9,7,-2,1,0,0,0
23.155392169952393,1.6318359375,-1.0,-2.4,1.5,1.944869682887771,0.0,-9.72663879871834,0.6,0.0,-9.7,3,-4,1,0,0,0
23.222137451171875,1.6162109375,-1.3,-1.4,1.5,3.9420117375435777,0.0,-8.48051295010373,-0.2,0.4,-10.2,4,-1,0,0,0,0
23.288490772247314,1.6376953125,0.0,0.8,1.5,5.767132551364323,0.0,-10.203854151885025,0.1,0.4,-10.0,-2,-1,0,0,0,0
23.3550865650177,1.66796875,-1.5,1.2,1.5,7.339950249285074,0.0,-12.631329346331768,-0.5,0.0,-9.7,-3,5,0,0,0,0
23.421760320663452,1.66015625,-1.0,-0.8,1.5,8.592176524683609,0.0,-12.011670784908347,0.1,-0.1,-9.7,-2,-22,-1,0,0,0
23.488545656204224,1.634765625,-6.8,0.2,1.5,9.468451098422358,0.0,-9.984915201202966,0.1,0.2,-9.7,-4,-8,-1,0,-1,0
23.555477619171143,1.6552734375,-0.8,-5.7,1.5,9.93047538178135,0.0,-11.630718124681152,0.0,-0.3,-9.7,2,-18,0,0,-2,0
23.622409105300903,1.63671875,-1.1,0.2,1.5,9.958153685828137,0.0,-10.150901813642122,-0.1,-0.2,-9.5,14,5,-1,0,-3,0
23.688076734542847,1.615234375,1.1,-0.4,1.5,9.55045101678284,0.0,-8.435993491555564,0.0,0.0,-10.2,8,-1,0,1,-2,0
23.754780292510986,1.6376953125,0.3,-5.1,1.5,8.725096192905262,0.0,-10.237459578434937,0.0,-0.1,-9.8,10,2,0,1,-2,0
23.82208228111267,1.6376953125,0.3,-7.0,1.5,7.518577005506338,0.0,-10.242049450636841,-0.2,0.7,-9.7,8,1,0,2,-2,0
23.888792991638184,1.724609375,0.0,-11.5,1.5,5.983075603574504,0.0,-17.202663136296906,-0.2,-1.0,-10.1,2,0,0,2,-2,0
23.9559326171875,1.69921875,0.0,-6.0,1.5,4.186302423991439,0.0,-15.178054134943523,0.5,0.3,-10.2,6,3,0,2,-2,0
24.02261734008789,1.6953125,2.1,-0.9,1.5,2.206473809783584,0.0,-14.872065127477981,-0.8,0.5,-9.1,2,0,0,3,-1,0
24.08825445175171,1.673828125,1.2,1.1,1.5,0.12971761800893278,0.0,-13.159111237036996,0.0,0.3,-9.6,-18,8,0,2,-1,0
24.155269145965576,1.6513671875,1.5,1.1,1.5,-1.9522250785845499,0.0,-11.367282220162451,-0.5,-0.4,-9.5,-10,9,0,1,0,0
24.22190237045288,1.6484375,1.2,-2.3,1.5,-3.9492792668139027,0.0,-11.137856689281762,0.1,-0.2,-10.2,-6,6,0,0,0,0
24.28862953186035,1.654296875,2.8,-2.9,1.5,-5.773335193804364,0.0,-11.611750667681918,-0.3,0.0,-9.7,0,5,0,0,0,0
24.355741262435913,1.6455078125,2.5,0.3,1.5,-7.34517716487801,0.0,-10.91347724176012,0.1,-0.7,-9.9,0,3,0,0,0,0
24.422471523284912,1.6376953125,0.8,0.2,1.5,-8.595586768153611,0.0,-10.293067310936749,-0.5,0.0,-9.5,4,4,0,0,0,0
24.489683628082275,1.625,6.4,3.1,1.5,-9.470272942205819,0.0,-9.281609077937901,0.0,-0.1,-10.6,-3,12,0,0,1,0
24.55525016784668,1.669921875,1.7,-1.0,1.5,-9.93107059535226,0.0,-12.88102384400554,0.0,-0.2,-9.8,-4,13,0,0,1,0
24.62201690673828,1.6904296875,4.7,0.9,1.5,-9.95768230905673,0.0,-14.52799865079578,-0.3,0.0,-9.2,-7,6,-1,0,2,0
24.688740253448486,1.673828125,-0.2,7.7,1.5,-9.548941881587886,0.0,-13.20566857920494,-0.2,0.2,-9.2,-1,5,0,0,2,0
24.75594925880432,1.7119140625,4.0,2.7,1.5,-8.722717159591035,0.0,-16.259608561871573,0.4,-0.1,-10.3,-1,-7,0,0,2,0
24.822628259658813,1.697265625,-0.9,2.7,1.5,-7.514989689393116,0.0,-15.094310910673812,0.2,-0.9,-10.0,-6,3,0,0,2,0
24.889577865600586,1.689453125,0.5,-0.2,1.5,-5.978670600629989,0.0,-14.475627634907141,-0.4,0.8,-8.8,0,-6,0,0,2,0
24.95512294769287,1.71484375,-6.1,6.1,1.5,-4.180530488616354,0.0,-16.51404241588898,-0.4,0.9,-8.9,-1,0,0,0,1,0
25.022011280059814,1.71484375,-6.2,0.7,1.5,-2.1992984267933986,0.0,-16.521207965211943,0.0,0.0,-9.5,-2,-16,0,0,0,0
25.08798575401306,1.71484375,-1.4,4.9,1.5,-0.12282938039747471,0.0,-16.528370082611218,0.0,0.4,-9.1,-1,-4,0,-1,0,0
25.15611958503723,1.763671875,-6.7,-1.6,1.5,1.9589060387560013,0.0,-20.443409545347095,0.2,-0.1,-9.2,-6,-2,0,-1,0,0
25.221179008483887,1.666015625,-4.8,-1.1,1.5,3.9550202851951393,0.0,-12.636443631723523,0.7,-0.3,-10.1,0,-2,0,-1,0,0
25.28881573677063,1.6572265625,-5.4,1.7,1.5,5.778429317456099,0.0,-11.938560261856765,0.0,0.5,-9.3,-3,-19,0,-1,0,0
25.355686902999878,1.7314453125,-7.4,1.5,1.5,7.349222778244876,0.0,-17.883776174276136,0.0,0.0,-9.1,-1,-12,0,-1,-2,0
25.42230772972107,1.736328125,-5.1,-6.6,1.5,8.5986572664595,0.0,-18.2822793625528,-0.3,0.3,-9.5,4,-12,0,-1,-2,0
25.48959732055664,1.71875,-1.1,-2.4,1.5,9.47242497447828,0.0,-16.883323603891768,-0.3,0.7,-9.7,12,-3,0,-1,-3,0
25.555851221084595,1.6376953125,0.0,-1.7,1.5,9.93189901399241,0.0,-10.403539854916744,-0.5,0.2,-9.7,8,3,0,0,-3,0
25.62263512611389,1.6357421875,0.5,-2.9,1.5,9.957028321739541,0.0,-10.251816143631004,0.0,-0.1,-10.0,0,4,0,0,-2,0
25.689595222473145,1.6357421875,0.0,1.1,1.5,9.546397203154026,0.0,-10.256344568333589,-0.3,0.5,-9.7,0,0,0,0,-2,0
25.756498098373413,1.703125,0.3,-0.5,1.5,8.71839827301046,0.0,-15.653742380789481,0.0,0.5,-9.9,4,-1,0,0,-2,0
25.82312297821045,1.68359375,0.0,-0.5,1.5,7.509265544490582,0.0,-14.097363436012529,-0.2,0.1,-9.6,0,0,0,0,-2,0
25.889360189437866,1.6640625,0.6,-1.0,1.5,5.9716096982987965,0.0,-12.540333940996788,-0.6,0.2,-9.9,-1,2,0,0,-2,0
25.95599889755249,1.6875,1.4,-1.1,1.5,4.173274936359993,0.0,-14.421584404422902,-0.5,0.0,-9.3,0,3,0,0,-2,0
26.02272319793701,1.685546875,3.8,-1.1,1.5,2.1925312622386723,0.0,-14.27151969249826,0.0,-0.3,-10.4,2,9,0,0,-1,0
26.0895357131958,1.73828125,0.8,1.1,1.5,0.11562639306815084,0.0,-18.498214182793163,-0.3,0.9,-9.9,0,1,0,0,-1,0
26.15624690055847,1.7509765625,5.2,-0.2,1.5,-1.9663154390460293,0.0,-19.522206825437024,0.0,-0.4,-10.1,0,12,0,0,0,0
26.222055196762085,1.740234375,1.7,-1.0,1.5,-3.9624409992264944,0.0,-18.67084200726822,-0.2,0.5,-8.7,0,5,0,0,0,0
26.289089918136597,1.740234375,2.1,-0.4,1.5,-5.785341555991895,0.0,-18.67885244684294,0.1,-1.0,-9.6,1,1,0,0,0,0
26.356127977371216,1.7578125,2.2,-1.5,1.5,-7.354945977019756,0.0,-20.09369729505852,0.4,0.0,-9.8,2,0,-1,0,0,0
26.422828674316406,1.7578125,1.0,-3.4,1.5,-8.60290632262471,0.0,-20.102291190531105,-0.7,0.0,-9.4,5,2,0,0,0,0
26.489871740341187,1.732421875,1.8,-5.0,1.5,-9.475033292697892,0.0,-18.07879065698944,0.0,0.0,-10.1,1,13,-2,0,0,0
26.556241750717163,1.728515625,0.3,-8.1,1.5,-9.932837248040213,0.0,-17.773909934796393,0.2,0.3,-9.8,2,4,0,0,1,0
26.62317156791687,1.68359375,0.9,-0.0,1.5,-9.956337288600604,0.0,-14.186279917601496,-0.2,-0.3,-9.8,3,0,-1,0,1,0
26.688926696777344,1.68359375,-1.0,-4.0,1.5,-9.544488842830033,0.0,-14.1924016950652,-0.6,0.5,-9.4,0,3,0,1,1,0
26.755982160568237,1.748046875,1.0,-0.6,1.5,-8.715279346719928,0.0,-19.356922193197533,0.0,-0.2,-10.3,0,-5,-1,1,1,0
26.82273006439209,1.748046875,-0.4,0.2,1.5,-7.5052691318025495,0.0,-19.36519088759087,-0.6,0.7,-9.9,-1,3,0,0,1,0
26.88952136039734,1.75,0.2,-0.2,1.5,-5.967131123260289,0.0,-19.529775017639622,-0.2,0.3,-9.1,-5,1,0,0,1,0
26.956357955932617,1.662109375,-1.4,2.3,1.5,-4.167126419772885,0.0,-12.503932098159567,0.4,-0.8,-9.9,-6,4,0,0,1,0
27.023387670516968,1.662109375,-2.4,6.6,1.5,-2.1849813196992924,0.0,-12.509338637581095,0.0,0.0,-10.3,-7,-14,1,0,1,0
27.089025020599365,1.650390625,-5.1,7.3,1.5,-0.10758416129055606,0.0,-11.576853500213474,0.0,0.0,-10.3,-7,-14,1,0,1,0
27.155970811843872,1.650390625,-2.6,2.9,1.5,1.9742005205051483,0.0,-11.581867591943592,0.0,0.0,-10.3,-7,-14,1,0,1,0
27.155970811843872,1.650390625,-2.6,2.9,1.5,3.9697715949943317,0.0,-11.586881952593103,0.0,0.0,-10.3,-7,-14,1,0,1,0
27.28962469100952,1.58984375,-1.6,0.2,1.5,5.7926305641207705,0.0,-6.746129076229408,-0.8,0.6,-10.3,2,-2,0,0,0,0
27.355976819992065,1.599609375,-5.7,-4.6,1.5,7.361154532004938,0.0,-7.530700169270858,0.0,-0.2,-9.7,2,-16,1,0,-1,0
27.422746896743774,1.61328125,-3.5,0.8,1.5,8.607702834004614,0.0,-8.628226733999327,-0.4,0.0,-9.6,1,-12,1,0,-2,0
27.489525079727173,1.599609375,-7.1,-6.1,1.5,9.477899939888301,0.0,-7.537797233322635,-0.6,0.5,-9.5,9,-8,0,0,-3,0
27.55608081817627,1.578125,-1.7,-6.5,1.5,9.933830345694014,0.0,-5.8216516769025475,-0.5,0.2,-9.7,9,-11,0,0,-3,0
27.62317657470703,1.650390625,-1.1,-7.3,1.5,9.95543144497155,0.0,-11.607917328365147,-0.5,0.6,-9.2,6,3,0,0,-4,0
27.69010066986084,1.6328125,1.1,4.6,1.5,9.541378238592896,0.0,-10.206097431480885,-0.5,0.3,-10.1,0,6,0,1,-3,0
27.755909204483032,1.73828125,0.4,-8.2,1.5,8.71036325984384,0.0,-18.651540842372924,0.0,-0.6,-9.6,-4,6,0,1,-2,0
27.755909204483032,1.6982421875,0.4,-8.2,1.5,7.498122135167467,0.0,-15.455026792129502,0.3,-0.6,-9.6,-1,1,-1,0,-2,0
27.889574766159058,1.671875,0.5,11.0,1.5,5.95831653600983,0.0,-13.351381977787241,-0.8,0.3,-9.0,-9,4,0,0,-2,0
27.956525564193726,1.7041015625,1.4,4.2,1.5,4.1578538487071235,0.0,-15.936312157195061,-0.3,-0.1,-9.8,-11,3,0,0,-1,0
28.023143529891968,1.685546875,0.9,-1.7,1.5,2.1758383857712964,0.0,-14.458122887648642,0.4,0.3,-10.3,-3,4,0,0,-1,0
28.08989906311035,1.69921875,5.5,4.4,1.5,0.09765367656463046,0.0,-15.55851775733754,-0.5,0.5,-9.6,0,8,0,0,-1,0
28.156782150268555,1.69921875,0.4,0.6,1.5,-1.983570559922595,0.0,-15.565158613491803,-0.3,-0.5,-9.8,0,5,0,-1,0,0
28.222683906555176,1.61328125,1.1,0.6,1.5,-3.978062144958756,0.0,-8.693934719078243,0.3,-0.2,-10.0,3,5,0,0,0,0
28.289499044418335,1.65234375,1.4,-0.4,1.5,-5.798881640264061,0.0,-11.824013493023813,-0.1,0.2,-9.7,2,5,0,0,0,0
28.35611915588379,1.642578125,0.8,-1.6,1.5,-7.366531428735125,0.0,-11.04751786030829,-0.1,0.2,-9.7,2,5,0,0,0,0
28.35611915588379,1.6357421875,0.8,-1.6,1.5,-8.611914935434186,0.0,-10.505168922478333,-0.1,0.2,-9.7,2,5,0,0,0,0
28.490058660507202,1.6875,0.8,2.4,1.5,-9.480689184890847,0.0,-14.652045704657212,-0.1,0.2,-9.7,2,5,0,0,0,0
28.490058660507202,1.6875,0.8,2.4,1.5,-9.934847593349565,0.0,-14.658296771580353,-0.1,0.2,-9.7,2,5,0,0,0,0
28.62406849861145,1.689453125,0.9,-1.5,1.5,-9.95466338823668,0.0,-14.820862840861082,-0.1,0.2,-9.7,2,5,0,0,0,0
28.68959951400757,1.689453125,1.5,1.9,1.5,-9.539319417074626,0.0,-14.827178503619507,-0.1,0.2,-9.7,2,5,0,0,0,0
28.756226778030396,1.67578125,0.5,-1.3,1.5,-8.706747456498643,0.0,-13.739289779914543,-0.1,0.2,-9.7,2,5,0,0,0,0
28.756226778030396,1.662109375,0.5,-1.3,1.5,-7.493290837949687,0.0,-12.650945604313165,0.1,-0.4,-9.9,3,0,0,0,1,0
28.890265941619873,1.62890625,-1.0,1.6,1.5,-5.9522155995073325,0.0,-9.998993858229369,0.1,-0.4,-9.9,3,0,0,0,1,0
28.95702815055847,1.61328125,-0.8,3.8,1.5,-4.150911024631282,0.0,-8.75277096312493,1.1,-0.6,-10.1,-8,-1,1,0,1,0
29.022820472717285,1.6455078125,-1.2,3.1,1.5,-2.168043500231089,0.0,-11.335747710661963,-0.4,0.3,-9.4,-8,-10,0,0,0,0
29.08988380432129,1.671875,-1.2,2.7,1.5,-0.09075565908356287,0.0,-13.45085254800506,0.6,-0.7,-10.4,-4,0,1,0,0,0
29.08988380432129,1.64453125,-1.2,2.7,1.5,1.9912846166510247,0.0,-11.268172663869336,-0.1,0.0,-9.6,0,0,0,0,0,0
29.22347927093506,1.6171875,-1.4,-0.0,1.5,3.9862007613067134,0.0,-9.084580837981775,-0.5,0.3,-9.7,0,0,0,0,0,0
29.29016923904419,1.6123046875,-2.4,-3.2,1.5,5.806348391763162,0.0,-8.697700354852714,-0.6,0.9,-9.7,3,-1,0,0,0,0
29.357107639312744,1.642578125,-0.7,0.8,1.5,7.373153650593628,0.0,-11.12433113285806,0.5,0.0,-10.6,3,-20,0,0,0,0
29.42288088798523,1.642578125,-6.6,-0.9,1.5,8.6168713204396,0.0,-11.129085041233338,0.3,-0.2,-10.1,0,-12,0,0,-1,0
29.489851713180542,1.642578125,-1.7,-0.1,1.5,9.483616366488764,0.0,-11.133837776840664,-0.4,0.6,-9.6,5,-17,0,0,-2,0
29.557258367538452,1.642578125,-7.2,-0.1,1.5,9.935893648050527,0.0,-11.138591175316833,0.0,-0.5,-9.8,0,-5,0,0,-3,0
29.622837781906128,1.6552734375,-0.8,-3.2,1.5,9.953769786904525,0.0,-12.15939308074303,0.1,-0.1,-10.3,8,-1,0,0,-3,0
29.689890146255493,1.625,-0.2,1.9,1.5,9.536470075242967,0.0,-9.741685384185985,0.2,0.1,-9.9,0,2,0,0,-3,0
29.756568431854248,1.623046875,0.6,-0.2,1.5,8.701684638336006,0.0,-9.589539847103879,-0.5,0.4,-9.6,-1,3,-1,0,-2,0
29.823664665222168,1.623046875,0.7,1.3,1.5,7.486982705020031,0.0,-9.59364156704396,0.4,-0.1,-9.9,-1,0,0,0,-2,0
29.890652894973755,1.591796875,0.3,0.8,1.5,5.943526918247683,0.0,-7.096704327035695,-0.2,0.3,-9.9,0,6,0,0,-2,0
29.95729112625122,1.6025390625,0.8,0.7,1.5,4.1411621538866035,0.0,-7.959498099284247,0.3,-0.2,-10.2,0,3,0,0,-2,0
30.02393078804016,1.64453125,1.7,0.9,1.5,2.1580682732181806,0.0,-11.32369113038294,-0.4,1.0,-9.4,5,4,0,0,-1,0
30.08992838859558,1.64453125,2.8,0.8,1.5,0.08036726810726283,0.0,-11.328509816201404,0.0,-0.1,-9.7,4,-1,0,0,-1,0
30.157772302627563,1.6796875,1.2,-1.9,1.5,-2.000950349683364,0.0,-14.14700089325197,0.1,0.2,-10.2,-1,15,1,0,0,0
30.223597526550293,1.7119140625,1.9,-1.8,1.5,-3.9949132648452657,0.0,-16.732191962189972,-0.2,-0.6,-10.0,-3,7,0,0,0,0
30.290263652801514,1.693359375,1.2,-5.2,1.5,-5.813880097156186,0.0,-15.254263259703293,0.5,0.6,-10.0,-8,5,0,0,0,0
30.3570876121521,1.662109375,1.4,-0.5,1.5,-7.378681075520409,0.0,-12.75966775068082,0.0,0.2,-9.3,10,1,0,0,0,0
30.42440700531006,1.646484375,1.2,1.2,1.5,-8.621631071574814,0.0,-11.514554732013494,-0.5,0.1,-9.5,2,1,0,0,0,0
30.490967273712158,1.654296875,0.8,-0.0,1.5,-9.486607890373676,0.0,-12.144698232179508,0.2,0.1,-10.3,6,0,1,0,0,0
30.557679176330566,1.703125,6.5,-0.0,1.5,-9.936971894500935,0.0,-16.057720632990822,-0.5,0.7,-9.5,3,15,0,0,1,0
30.623488187789917,1.6923828125,3.7,0.2,1.5,-9.952801799184861,0.0,-15.204761139350012,0.1,0.0,-10.2,0,16,0,1,2,0
30.69046640396118,1.6923828125,6.5,1.1,1.5,-9.533039166394001,0.0,-15.211179053760134,0.4,-0.4,-10.1,-2,3,1,0,3,0
30.757026195526123,1.689453125,-1.0,-0.2,1.5,-8.696607909645243,0.0,-14.983120326302014,0.1,0.0,-8.9,-3,2,0,0,2,0
30.82394051551819,1.6806640625,-1.0,-0.8,1.5,-7.480148800280583,0.0,-14.286017735954374,0.0,0.1,-10.0,-3,-10,0,0,2,0
30.8905508518219,1.650390625,-5.4,10.3,1.5,-5.936512123630992,0.0,-11.869156666332856,0.1,-0.7,-9.4,-4,-11,0,0,1,0
30.95753002166748,1.69921875,-1.3,5.7,1.5,-4.133067258364254,0.0,-15.78204937488772,0.6,0.1,-10.0,-3,-1,0,0,1,0
